{
  "resourceType": "Bundle",
  "id": "ExampleEPAMedicationRequestBundle",
  "type": "collection",
  "entry": [
    {
      "resource": {
        "resourceType": "MedicationRequest",
        "id": "bf1b08e5-5cfe-4ec0-b6b3-580d4bdc7975",
        "meta": {
          "profile": [
            "https://gematik.de/fhir/epa-medication/StructureDefinition/epa-medication-request"
          ]
        },
        "subject": {
          "identifier": {
            "system": "http://fhir.de/sid/gkv/kvid-10",
            "value": "X123456789"
          }
        },
        "dispenseRequest": {
          "quantity": {
            "system": "http://unitsofmeasure.org",
            "code": "{Package}",
            "value": 3
          }
        },
        "status": "active",
        "intent": "plan",
        "medicationReference": {
          "reference": "Medication/50438bb0-34cd-4e48-a311-af6357f38681"
        },
        "authoredOn": "2024-07-01",
        "requester": {
          "reference": "PractitionerRole/115aceb7-d4a9-4843-aa6a-96a6999a803c"
        }
      }
    },
    {
      "resource": {
        "resourceType": "Medication",
        "id": "50438bb0-34cd-4e48-a311-af6357f38681",
        "meta": {
          "profile": [
            "https://gematik.de/fhir/epa-medication/StructureDefinition/epa-medication"
          ]
        },
        "extension": [
          {
            "valueIdentifier": {
              "system": "https://gematik.de/fhir/epa-medication/sid/rx-prescription-process-identifier",
              "value": "160.153.303.257.459_20240122"
            },
            "url": "https://gematik.de/fhir/epa-medication/StructureDefinition/rx-prescription-process-identifier-extension"
          }
        ],
        "identifier": [
          {
            "system": "https://gematik.de/fhir/epa-medication/sid/epa-medication-unique-identifier",
            "value": "583DC39E2BFFBFD6C05AE0AC404516309F56729EA44813F9FB881C73EE58EA5D"
          },
          {
            "system": "https://gematik.de/fhir/epa-medication/sid/rx-originator-process-identifier",
            "value": "6ae6a7ca-c9b5-46bf-9411-2ba49d96f988_160.153.303.257.459"
          }
        ],
        "status": "active",
        "code": {
          "coding": [
            {
              "system": "http://fhir.de/CodeSystem/ask",
              "code": "5682",
              "display": "Ibuprofen"
            }
          ]
        }
      }
    },
    {
      "resource": {
        "resourceType": "PractitionerRole",
        "id": "115aceb7-d4a9-4843-aa6a-96a6999a803c",
        "meta": {
          "tag": [
            {
              "system": "https://gematik.de/fhir/directory/CodeSystem/Origin",
              "code": "ldap"
            }
          ],
          "profile": [
            "https://gematik.de/fhir/directory/StructureDefinition/PractitionerRoleDirectory"
          ]
        },
        "practitioner": {
          "reference": "Practitioner/e94eb9b2-a8ac-4077-ba64-51af77a031f0"
        },
        "location": [
          {
            "reference": "Location/5541eeb9-4b4f-4f0c-bdd3-53dc0280898b"
          }
        ]
      }
    },
    {
      "resource": {
        "resourceType": "Practitioner",
        "id": "e94eb9b2-a8ac-4077-ba64-51af77a031f0",
        "meta": {
          "tag": [
            {
              "system": "https://gematik.de/fhir/directory/CodeSystem/Origin",
              "code": "ldap"
            }
          ],
          "profile": [
            "https://gematik.de/fhir/directory/StructureDefinition/PractitionerDirectory"
          ]
        },
        "identifier": [
          {
            "system": "https://gematik.de/fhir/sid/telematik-id",
            "value": "1-1012345678"
          },
          {
            "system": "https://fhir.kbv.de/NamingSystem/KBV_NS_Base_ANR",
            "value": "123456789"
          }
        ],
        "name": [
          {
            "prefix": [
              "Dr."
            ],
            "given": [
              "Max",
              "Manfred"
            ],
            "family": "Musterman",
            "text": "Dr. Max Manfred Mustermann"
          }
        ],
        "qualification": [
          {
            "code": {
              "coding": [
                {
                  "code": "010",
                  "system": "urn:oid:1.2.276.0.76.5.114"
                }
              ]
            }
          },
          {
            "code": {
              "coding": [
                {
                  "code": "1.2.276.0.76.4.30",
                  "system": "https://gematik.de/fhir/directory/CodeSystem/PractitionerProfessionOID"
                }
              ]
            }
          }
        ]
      }
    }
  ]
}
