{
  "resourceType": "Bundle",
  "id": "ExampleEPAMedicationDispenseBundle",
  "type": "collection",
  "entry": [
    {
      "resource": {
        "resourceType": "MedicationDispense",
        "id": "cd6c2892-eef2-4eed-8b82-1b15e8e0fd4f",
        "meta": {
          "profile": [
            "https://gematik.de/fhir/epa-medication/StructureDefinition/epa-medication-dispense"
          ]
        },
        "subject": {
          "identifier": {
            "system": "http://fhir.de/sid/gkv/kvid-10",
            "value": "X123456789"
          }
        },
        "status": "completed",
        "performer": [
          {
            "actor": {
              "reference": "Organization/e6b0cd54-a6f2-4b8c-ad68-76c3ae953b3e"
            }
          }
        ],
        "medicationReference": {
          "reference": "Medication/6b0350b6-f5ab-495b-9aeb-1806170a814f"
        },
        "whenHandedOver": "2025-01-15"
      }
    },
    {
      "resource": {
        "resourceType": "Medication",
        "id": "6b0350b6-f5ab-495b-9aeb-1806170a814f",
        "meta": {
          "profile": [
            "https://gematik.de/fhir/epa-medication/StructureDefinition/epa-medication"
          ]
        },
        "extension": [
          {
            "valueIdentifier": {
              "system": "https://gematik.de/fhir/epa-medication/sid/rx-prescription-process-identifier",
              "value": "160.153.303.257.459_20240122"
            },
            "url": "https://gematik.de/fhir/epa-medication/StructureDefinition/rx-prescription-process-identifier-extension"
          }
        ],
        "identifier": [
          {
            "system": "https://gematik.de/fhir/epa-medication/sid/epa-medication-unique-identifier",
            "value": "583DC39E2BFFBFD6C05AE0AC404516309F56729EA44813F9FB881C73EE58EA5D"
          },
          {
            "system": "https://gematik.de/fhir/epa-medication/sid/rx-originator-process-identifier",
            "value": "6ae6a7ca-c9b5-46bf-9411-2ba49d96f988_160.153.303.257.459"
          }
        ],
        "status": "active",
        "code": {
          "coding": [
            {
              "system": "http://fhir.de/CodeSystem/ask",
              "code": "5682",
              "display": "Ibuprofen"
            }
          ]
        }
      }
    },
    {
      "resource": {
        "resourceType": "Organization",
        "id": "e6b0cd54-a6f2-4b8c-ad68-76c3ae953b3e",
        "meta": {
          "tag": [
            {
              "system": "https://gematik.de/fhir/directory/CodeSystem/Origin",
              "code": "ldap"
            }
          ],
          "profile": [
            "https://gematik.de/fhir/directory/StructureDefinition/OrganizationDirectory"
          ]
        },
        "identifier": [
          {
            "system": "https://gematik.de/fhir/sid/telematik-id",
            "value": "3-21234567890"
          }
        ],
        "name": "Example EPA Pharmacy",
        "type": [
          {
            "coding": [
              {
                "code": "1.2.276.0.76.4.54",
                "system": "https://gematik.de/fhir/directory/CodeSystem/OrganizationProfessionOID",
                "display": "Öffentliche Apotheke"
              }
            ]
          }
        ]
      }
    }
  ]
}
